wavelength,n
1.01e-08,0.991
1.04e-08,0.985
1.07e-08,0.992
1.1e-08,0.987
1.13e-08,0.982
1.16e-08,0.983
1.19e-08,0.985
1.23e-08,0.982
1.27e-08,0.978
1.31e-08,0.972
1.36e-08,0.969
1.4e-08,0.972
1.45e-08,0.974
1.51e-08,0.974
1.57e-08,0.973
1.63e-08,0.976
1.7e-08,0.975
1.78e-08,0.968
1.86e-08,0.967
1.95e-08,0.967
2.05e-08,0.97
2.16e-08,0.969
2.29e-08,0.961
2.42e-08,0.958
2.58e-08,0.949
2.76e-08,0.94
2.96e-08,0.927
3.2e-08,0.912
3.48e-08,0.891
3.81e-08,0.88
4.21e-08,0.874
